Folder: GPU-Architectures/Implementing a CNN on Nvidia Kepler GPU/Code/images

File: xrd
-0.5
  -0.5
  -0.5
  -0.5
  -0.5
  -0.5
  -0.5
  -0.5
  -0.5
  -0.5
  -0.5
  -0.5
  -0.5
  -0.5
  -0.5
  -0.5
  -0.5
  -0.5
  -0.5
  -0.5
  -0.5
  -0.5
  -0.5
  -0.5
  -0.5
  -0.5
  -0.5
  -0.5
 -0.5
  -0.5
  -0.5
  -0.5
  -0.5
  -0.5
  -0.5
  -0.5
  -0.5
  -0.5
  -0.5
  -0.5
  -0.5
  -0.5
  -0.5
  -0.5
  -0.5
  -0.5
  -0.5
  -0.5
  -0.5
  -0.5
  -0.5
  -0.5
  -0.5
  -0.5
  -0.5
  -0.5
 -0.5
  -0.5
  -0.5
  -0.456863
  -0.5
  -0.5
  -0.5
  -0.5
  -0.5
  -0.5
  -0.5
  -0.5
  -0.5
  -0.296078
  -0.5
  -0.5
  -0.5
  -0.5
  -0.5
  -0.5
  -0.5
  -0.5
   0.319608
  -0.5
  -0.5
  -0.5
  -0.5
  -0.5
 -0.5
  -0.5
  -0.5
   0.252941
  -0.5
  -0.5
  -0.5
  -0.01372549
  -0.5
  -0.5
  -0.5
  -0.5
   0.04901961
  -0.5
   0.292157
   0.37451
   0.492157
   0.4137255
  -0.5
  -0.5
  -0.5
  -0.398039
  -0.296078
   0.221569
   0.492157
   0.01372549
   0.492157
  -0.5
 -0.5
  -0.5
  -0.5
   0.233333
  -0.5
  -0.319608
  -0.472549
   0.472549
  -0.417647
  -0.5
  -0.5
  -0.5
   0.3
  -0.366667
  -0.5
  -0.5
  -0.44902
   0.111765
  -0.5
  -0.5
  -0.5
   0.492157
  -0.5
  -0.5
  -0.5
  -0.5
   0.492157
  -0.5
 -0.5
  -0.5
   0.480392
  -0.5
  -0.5
  -0.5
  -0.5
   0.05686275
  -0.5
  -0.5
  -0.5
   0.496078
  -0.5
  -0.5
  -0.5
  -0.5
   0.00196078
  -0.5
  -0.5
  -0.5
  -0.5
   0.3
  -0.5
  -0.5
  -0.296078
   0.382353
  -0.5
  -0.5
 -0.5
  -0.5
   0.492157
  -0.429412
  -0.5
   0.01372549
  -0.02156863
  -0.5
  -0.5
  -0.5
  -0.5
   0.358824
   0.492157
   0.186275
   0.382353
  -0.429412
  -0.5
  -0.5
  -0.5
  -0.5
  -0.5
   0.07254902
   0.492157
   0.476471
  -0.5
  -0.5
  -0.5
  -0.5
 -0.5
  -0.5
  -0.3509804
   0.331373
   0.421569
  -0.5
  -0.5
  -0.5
  -0.5
  -0.5
  -0.5
  -0.5
  -0.5
  -0.5
  -0.5
  -0.5
  -0.5
  -0.5
  -0.5
  -0.5
  -0.5
  -0.5
  -0.5
  -0.5
  -0.5
  -0.5
  -0.5
  -0.5
 -0.5
  -0.5
  -0.5
  -0.5
  -0.5
  -0.5
  -0.5
  -0.5
  -0.5
  -0.5
  -0.5
  -0.5
  -0.5
  -0.5
  -0.5
  -0.5
  -0.5
  -0.5
  -0.5
  -0.5
  -0.5
  -0.5
  -0.5
  -0.5
  -0.5
  -0.5
  -0.5
  -0.5
 -0.5
  -0.5
  -0.5
  -0.5
  -0.5
  -0.5
  -0.5
  -0.5
  -0.5
  -0.5